stimuli_name,trials_2.thisRepN,trials_2.thisTrialN,trials_2.thisN,trials_2.thisIndex,trials.thisRepN,trials.thisTrialN,trials.thisN,trials.thisIndex,Introduction.started,listen_instr.started,key_continue.started,Introduction.stopped,key_continue.keys,key_continue.rt,cross.started,cue.started,cross_listen.started,beat1.started,cue.stopped,Instruction_next_trial.started,beat1.stopped,Instruction_next_trial.stopped,cross_listen.stopped,participant,session,date,expName,psychopyVersion,frameRate,
,,,,,,,,,21.137695184999757,25.108386152000094,25.108386152000094,25.141801378999844,space,18.589430134000395,,,,,,,,,,amy,001,2023-03-01_13h43.30.272,untitled,2022.2.5,None,
audio/exp0/snare_iso.wav,0,0,0,0,0,0,0,5,,,,,,,43.734124102999886,48.741036673666954,48.748398404,52.71194084166679,52.74376916399979,60.74076128800061,,,,amy,001,2023-03-01_13h43.30.272,untitled,2022.2.5,None,
audio/exp0/kick_mp2.wav,0,0,0,0,0,1,1,1,,,,,,,,61.7293859986669,61.73239190500044,65.72412936766638,65.74045951400058,73.74043787499977,73.72372247000021,,,amy,001,2023-03-01_13h43.30.272,untitled,2022.2.5,None,
audio/exp0/snare_mp2.wav,0,0,0,0,0,2,2,4,,,,,,,,74.74048488266659,74.7420779009999,78.71266811866668,78.741170968,86.7403000330005,,,,amy,001,2023-03-01_13h43.30.272,untitled,2022.2.5,None,
audio/exp0/kick_mp1.wav,0,0,0,0,0,3,3,0,,,,,,,,87.74466799266726,87.74748162700052,91.72360693766701,91.756917832,99.74011953799982,,,,amy,001,2023-03-01_13h43.30.272,untitled,2022.2.5,None,
audio/exp0/snare_mp1.wav,0,0,0,0,0,4,4,3,,,,,,,,100.74005856866667,100.74436952399992,104.72285045766718,104.74082688100043,112.72258350500033,,113.7226463550005,,amy,001,2023-03-01_13h43.30.272,untitled,2022.2.5,None,
audio/exp0/kick_iso.wav,0,0,0,0,0,5,5,2,,,,,,,,113.72262154666647,113.7226463550005,117.72293853566704,117.72311851999984,125.7252196670006,125.7252196670006,,125.7252196670006,amy,001,2023-03-01_13h43.30.272,untitled,2022.2.5,None,
,0,0,0,0,,,,,,,,,,,,,,,,,,,,amy,001,2023-03-01_13h43.30.272,untitled,2022.2.5,None,
audio/exp0/snare_mp1.wav,1,0,1,0,0,0,0,3,,,,,,,,126.73940635966689,126.74600556899986,130.72244517466723,130.7392739880006,138.7387384069998,138.72748753700034,,,amy,001,2023-03-01_13h43.30.272,untitled,2022.2.5,None,
audio/exp0/snare_mp2.wav,1,0,1,0,0,1,1,4,,,,,,,,139.73867267166705,139.74036058799993,143.72211262366662,143.73870930900011,151.73885922499994,151.7221378639997,,,amy,001,2023-03-01_13h43.30.272,untitled,2022.2.5,None,
audio/exp0/kick_mp2.wav,1,0,1,0,0,2,2,1,,,,,,,,152.7388007396669,152.73893234499974,156.72193010066647,156.74214335899978,164.73852891499973,164.7218058240005,,,amy,001,2023-03-01_13h43.30.272,untitled,2022.2.5,None,
audio/exp0/kick_mp1.wav,1,0,1,0,0,3,3,0,,,,,,,,165.73835522566722,165.7384056159999,169.72163042466698,169.73837834000005,177.73817358799988,,,,amy,001,2023-03-01_13h43.30.272,untitled,2022.2.5,None,
audio/exp0/kick_iso.wav,1,0,1,0,0,4,4,2,,,,,,,,178.73799132866705,178.73814157300058,182.72119160566697,182.73803114900056,190.73773428000004,,,,amy,001,2023-03-01_13h43.30.272,untitled,2022.2.5,None,
audio/exp0/snare_iso.wav,1,0,1,0,0,5,5,5,,,,,,,,191.73775258566664,191.73782627400033,195.7208996476668,195.73767348599995,203.73751956599972,203.72086846799994,,,amy,001,2023-03-01_13h43.30.272,untitled,2022.2.5,None,
,1,0,1,0,,,,,,,,,,,,,,,,,,,,amy,001,2023-03-01_13h43.30.272,untitled,2022.2.5,None,
audio/exp0/kick_mp2.wav,2,0,2,0,0,0,0,1,,,,,,,,204.73746614666678,204.7436309800005,208.72064930666718,208.73738193999998,216.73715402700054,216.7203993109997,,,amy,001,2023-03-01_13h43.30.272,untitled,2022.2.5,None,
audio/exp0/snare_mp2.wav,2,0,2,0,0,1,1,4,,,,,,,,217.73706505866656,217.73717930800012,221.7200849386666,221.73702344100002,229.7367339700004,229.72526300200025,,,amy,001,2023-03-01_13h43.30.272,untitled,2022.2.5,None,
audio/exp0/snare_mp1.wav,2,0,2,0,0,2,2,3,,,,,,,,230.74014219466724,230.7367465970001,234.72490681866682,,242.73640848800005,,,,amy,001,2023-03-01_13h43.30.272,untitled,2022.2.5,None,
audio/exp0/kick_iso.wav,2,0,2,0,0,3,3,2,,,,,,,,243.74104229366665,243.73795140899983,247.71946421866713,,255.7361790800005,,,,amy,001,2023-03-01_13h43.30.272,untitled,2022.2.5,None,
audio/exp0/snare_iso.wav,2,0,2,0,0,4,4,5,,,,,,,,256.73667442766714,256.7361123999999,260.71912840866685,260.73606341600043,268.7386591960003,,,,amy,001,2023-03-01_13h43.30.272,untitled,2022.2.5,None,
audio/exp0/kick_mp1.wav,2,0,2,0,0,5,5,0,,,,,,,,269.73585997266696,269.73932036600036,273.7220994076672,273.735635041,281.74109163699995,,,,amy,001,2023-03-01_13h43.30.272,untitled,2022.2.5,None,
,2,0,2,0,,,,,,,,,,,,,,,,,,,,amy,001,2023-03-01_13h43.30.272,untitled,2022.2.5,None,
audio/exp0/snare_iso.wav,3,0,3,0,0,0,0,5,,,,,,,,282.7521469383332,282.7435914400003,286.7186901446669,286.75198366600034,294.73536692200014,,,,amy,001,2023-03-01_13h43.30.272,untitled,2022.2.5,None,
audio/exp0/snare_mp2.wav,3,0,3,0,0,1,1,4,,,,,,,,295.73524985766676,295.7352217030002,299.71833124466707,299.7406731199999,307.73486500000035,,,,amy,001,2023-03-01_13h43.30.272,untitled,2022.2.5,None,
audio/exp0/snare_mp1.wav,3,0,3,0,0,2,2,3,,,,,,,,308.7348459226671,308.7349145320004,312.71799216266686,312.7353583089998,320.734596708,320.7179125520006,,,amy,001,2023-03-01_13h43.30.272,untitled,2022.2.5,None,
audio/exp0/kick_mp1.wav,3,0,3,0,0,3,3,0,,,,,,,,321.73446666066707,321.7391479530006,325.71957359866724,325.73440456000026,333.73418712700004,,,,amy,001,2023-03-01_13h43.30.272,untitled,2022.2.5,None,
audio/exp0/kick_mp2.wav,3,0,3,0,0,4,4,1,,,,,,,,334.73411023466656,334.7341302550003,338.7173712056667,338.734095025,346.7338580080004,346.71715311800017,,,amy,001,2023-03-01_13h43.30.272,untitled,2022.2.5,None,
audio/exp0/kick_iso.wav,3,0,3,0,0,5,5,2,,,,,,,,347.7338275436671,347.7338398339998,351.71711276466726,351.7334944109998,359.7334665650005,359.7168568420002,,,amy,001,2023-03-01_13h43.30.272,untitled,2022.2.5,None,
,3,0,3,0,,,,,,,,,,,,,,,,,,,,amy,001,2023-03-01_13h43.30.272,untitled,2022.2.5,None,
audio/exp0/snare_iso.wav,4,0,4,0,0,0,0,5,,,,,,,,360.7335197616669,360.73969542099985,364.7167315206664,364.73345111599974,372.7331686110001,,,,amy,001,2023-03-01_13h43.30.272,untitled,2022.2.5,None,
audio/exp0/snare_mp2.wav,4,0,4,0,0,1,1,4,,,,,,,,373.733158979667,373.73321129800024,377.7164514146664,377.7331395219999,385.73289781400035,385.71628593900004,,,amy,001,2023-03-01_13h43.30.272,untitled,2022.2.5,None,
audio/exp0/snare_mp1.wav,4,0,4,0,0,2,2,3,,,,,,,,386.73286607066643,386.73280327500015,390.7160868016665,390.734422644,398.7342783710001,,,,amy,001,2023-03-01_13h43.30.272,untitled,2022.2.5,None,
audio/exp0/kick_iso.wav,4,0,4,0,0,3,3,2,,,,,,,,399.7387499086665,399.73483669100005,403.71573379666665,,411.73224546599977,,,,amy,001,2023-03-01_13h43.30.272,untitled,2022.2.5,None,
audio/exp0/kick_mp2.wav,4,0,4,0,0,4,4,1,,,,,,,,412.73707104366645,412.73412195699984,416.71744777366644,,424.7336466430006,,,,amy,001,2023-03-01_13h43.30.272,untitled,2022.2.5,None,
audio/exp0/kick_mp1.wav,4,0,4,0,0,5,5,0,,,,,,,,425.7318918146668,425.73367084500023,429.71885638866684,429.73181397200005,437.73546352300036,,,,amy,001,2023-03-01_13h43.30.272,untitled,2022.2.5,None,
,4,0,4,0,,,,,,,,,,,,,,,,,,,,amy,001,2023-03-01_13h43.30.272,untitled,2022.2.5,None,
audio/exp0/kick_mp1.wav,5,0,5,0,0,0,0,0,,,,,,,,438.74903500733353,438.7401928770005,442.7147342106666,442.7511998360005,450.73120835400005,450.71842069300055,,,amy,001,2023-03-01_13h43.30.272,untitled,2022.2.5,None,
audio/exp0/snare_iso.wav,5,0,5,0,0,1,1,5,,,,,,,,451.73463762766664,451.73170917800053,455.7143949406666,,463.73093664000044,463.714281005,,,amy,001,2023-03-01_13h43.30.272,untitled,2022.2.5,None,
audio/exp0/kick_mp2.wav,5,0,5,0,0,2,2,1,,,,,,,,464.7309588306664,464.7309572860004,468.714158396667,468.73070311100037,476.73062389999996,476.71392826600004,,,amy,001,2023-03-01_13h43.30.272,untitled,2022.2.5,None,
audio/exp0/snare_mp2.wav,5,0,5,0,0,3,3,4,,,,,,,,477.73060172566716,477.7305563310001,481.71695286266663,481.7304953359999,489.7302864250005,,,,amy,001,2023-03-01_13h43.30.272,untitled,2022.2.5,None,
audio/exp0/snare_mp1.wav,5,0,5,0,0,4,4,3,,,,,,,,490.73024194066716,490.7354020370003,494.71354756466667,494.730153425,502.7299789180006,502.7133137410001,,,amy,001,2023-03-01_13h43.30.272,untitled,2022.2.5,None,
audio/exp0/kick_iso.wav,5,0,5,0,0,5,5,2,,,,,,,,503.72998880566706,503.73227082999983,507.71292639766693,507.7298310189999,515.7297820129997,515.7130463290005,,,amy,001,2023-03-01_13h43.30.272,untitled,2022.2.5,None,
,5,0,5,0,,,,,,,,,,,,,,,,,,,,amy,001,2023-03-01_13h43.30.272,untitled,2022.2.5,None,
audio/exp0/kick_mp2.wav,6,0,6,0,0,0,0,1,,,,,,,,516.7296275676665,516.7356683150001,520.7129343066665,520.7296144370002,528.7293036130004,528.7126499309998,,,amy,001,2023-03-01_13h43.30.272,untitled,2022.2.5,None,
audio/exp0/snare_iso.wav,6,0,6,0,0,1,1,5,,,,,,,,529.7293101336666,529.7292949880002,533.7125394986672,533.7291641800002,541.7309049810001,,,,amy,001,2023-03-01_13h43.30.272,untitled,2022.2.5,None,
audio/exp0/snare_mp1.wav,6,0,6,0,0,2,2,3,,,,,,,,542.728890147667,542.7330368290004,546.7149983596667,546.7289040350006,554.7286161290003,,,,amy,001,2023-03-01_13h43.30.272,untitled,2022.2.5,None,
audio/exp0/snare_mp2.wav,6,0,6,0,0,3,3,4,,,,,,,,555.729907930667,555.7287149880003,559.7118776366672,,567.7282662140005,,,,amy,001,2023-03-01_13h43.30.272,untitled,2022.2.5,None,
audio/exp0/kick_iso.wav,6,0,6,0,0,4,4,2,,,,,,,,568.7282709246667,568.7284966349998,572.7115163856672,,580.7279593949997,580.714914786,,,amy,001,2023-03-01_13h43.30.272,untitled,2022.2.5,None,
audio/exp0/kick_mp1.wav,6,0,6,0,0,5,5,0,,,,,,,,581.7329873846668,581.72991456,585.7111815826668,,593.7442893710004,593.7107933360003,,,amy,001,2023-03-01_13h43.30.272,untitled,2022.2.5,None,
,6,0,6,0,,,,,,,,,,,,,,,,,,,,amy,001,2023-03-01_13h43.30.272,untitled,2022.2.5,None,
audio/exp0/snare_mp2.wav,7,0,7,0,0,0,0,4,,,,,,,,594.7442986266672,594.7506707920002,598.7108964736665,598.7446323000004,606.7439681229998,606.710667929,,,amy,001,2023-03-01_13h43.30.272,untitled,2022.2.5,None,
audio/exp0/kick_iso.wav,7,0,7,0,0,1,1,2,,,,,,,,607.7286466626667,607.7272424809998,611.7105554756665,,619.7270073950003,619.7103612150004,620.7270109749998,619.7270073950003,amy,001,2023-03-01_13h43.30.272,untitled,2022.2.5,None,
audio/exp0/kick_mp1.wav,7,0,7,0,0,2,2,0,,,,,,,,620.7269536646666,620.7270109749998,624.7102044906671,624.7268421220006,632.7264598210004,632.710821523,,632.7264598210004,amy,001,2023-03-01_13h43.30.272,untitled,2022.2.5,None,
audio/exp0/kick_mp2.wav,7,0,7,0,0,3,3,1,,,,,,,,633.7306577616666,633.7275289380004,637.7265449046665,,645.7262722730002,,,,amy,001,2023-03-01_13h43.30.272,untitled,2022.2.5,None,
audio/exp0/snare_iso.wav,7,0,7,0,0,4,4,5,,,,,,,,646.730445864667,646.7274329440006,650.7110169866667,,658.7427498309999,,,,amy,001,2023-03-01_13h43.30.272,untitled,2022.2.5,None,
audio/exp0/snare_mp1.wav,7,0,7,0,0,5,5,3,,,,,,,,659.7426886926671,659.7426427110004,663.7259578286669,663.7425082939999,671.7463491389999,671.725775594,,,amy,001,2023-03-01_13h43.30.272,untitled,2022.2.5,None,
,7,0,7,0,,,,,,,,,,,,,,,,,,,,amy,001,2023-03-01_13h43.30.272,untitled,2022.2.5,None,
audio/exp0/kick_mp2.wav,8,0,8,0,0,0,0,1,,,,,,,,672.7423769136669,672.7495916799999,676.7258817576669,676.7439639969998,684.742054022,684.7253856980005,,,amy,001,2023-03-01_13h43.30.272,untitled,2022.2.5,None,
audio/exp0/snare_mp2.wav,8,0,8,0,0,1,1,4,,,,,,,,685.7421139006667,685.7442925710002,689.7122599366669,689.7419288500005,697.7416463810005,,,,amy,001,2023-03-01_13h43.30.272,untitled,2022.2.5,None,
audio/exp0/kick_iso.wav,8,0,8,0,0,2,2,2,,,,,,,,698.7417039756667,698.741682934,702.7248924556673,,710.74142115,710.7247197570005,,,amy,001,2023-03-01_13h43.30.272,untitled,2022.2.5,None,
audio/exp0/snare_mp1.wav,8,0,8,0,0,3,3,3,,,,,,,,711.7414507086671,711.7413890670005,715.7290909346668,715.7412540570003,723.7410067290002,,,,amy,001,2023-03-01_13h43.30.272,untitled,2022.2.5,None,
audio/exp0/snare_iso.wav,8,0,8,0,0,4,4,5,,,,,,,,724.7410674506666,724.7410686490002,728.724233578667,728.7435438660004,736.7442597999998,736.7241052360005,,,amy,001,2023-03-01_13h43.30.272,untitled,2022.2.5,None,
audio/exp0/kick_mp1.wav,8,0,8,0,0,5,5,0,,,,,,,,737.7406497276672,737.7424405940001,741.7239377496664,741.7406214399998,749.7236831099999,,750.7314012850002,,amy,001,2023-03-01_13h43.30.272,untitled,2022.2.5,None,
,8,0,8,0,,,,,,,,,,,,,,,,,,,,amy,001,2023-03-01_13h43.30.272,untitled,2022.2.5,None,
audio/exp0/snare_iso.wav,9,0,9,0,0,0,0,5,,,,,,,,750.7245273796664,750.7314012850002,754.7236751436669,754.7281333740002,762.7232932490006,,763.7233192800004,,amy,001,2023-03-01_13h43.30.272,untitled,2022.2.5,None,
audio/exp0/kick_mp2.wav,9,0,9,0,0,1,1,1,,,,,,,,763.7259352976664,763.7233192800004,767.7232080566666,,775.7250033199998,,,775.7250033199998,amy,001,2023-03-01_13h43.30.272,untitled,2022.2.5,None,
audio/exp0/kick_mp1.wav,9,0,9,0,0,2,2,0,,,,,,,,776.7418892216667,776.7396665570004,780.7224252356666,780.7555229529999,788.738819403,788.7221836180006,,,amy,001,2023-03-01_13h43.30.272,untitled,2022.2.5,None,
audio/exp0/snare_mp2.wav,9,0,9,0,0,3,3,4,,,,,,,,789.7387849866666,789.7387420430005,793.7219685586672,793.7384890740004,,,,,amy,001,2023-03-01_13h43.30.272,untitled,2022.2.5,None,
audio/exp0/snare_mp1.wav,9,0,9,0,0,4,4,3,,,,,,,,813.1210613453333,815.2094069490004,813.1210613453333,,815.2438052550006,,,,amy,001,2023-03-01_13h43.30.272,untitled,2022.2.5,None,
,,,,,,,,,,,,,,,,815.7698859050004,815.764134692,,,,,,,,,,,,,
